# d(e,e'p)n Central Kinematics Summary
# Beam Energy (Ei) = 10.549 GeV
# 4-Momentum Transfer (Q2) = 2.90 - 4.50 GeV (step: 0.10) 
# x-Bjorken (xbj) = 1.00 - 2.10 (step: 0.10) 
# Missing Momentum (Pr) = 0.00 - 0.60 GeV (step: 0.10) 
# Hadron Out-of-Plane Angle (phi) = 180 deg 
# thp = thq + thpq, phi = 180 ?  (q-vector scatters at smaller  angles than proton scattering angle)# 
# # 
# Tensor Polarized Deuterium: d(e,e'p) kinematics :
# 
# Header Definitions: 
# Pr   : Central Missing Momentum [GeV/c] 
# xbj  : Bjorken x  
# kf   : e- final momentum [GeV/c] 
# th_e : e- scattering angle [deg] 
# Pf   : final proton momentum [GeV/c] 
# th_p : proton scattering angle [deg] 
# q    : 3-momentum transfer [GeV] 
# th_q : relative angle between q-vector and +z (lab)  [deg] 
# th_nq: relative angle between q-vector and recoil neutron [deg] 
# th_pq: relative angle between q-vector and knocked-out proton [deg] 
# Q2   : 4-Momentum Transfer [GeV^2]  
# 
#! Pr[f,0]/ 	  xbj[f,1]/ 	 kf[f,2]/ 	 th_e[f,3]/ 	 Pf[f,4]/ 	 th_p[f,5]/ 	 q[f,6]/ 	 th_q[f,7]/ 	 th_nq[f,8]/ 	 th_pq[f,9]/ 	 Q2[f,10]/
  0.2000 	 1.2000 	 8.9059 	 11.3892 	 2.3798 	 47.1327 	 2.5298 	 44.0425 	 39.9009 	 3.0902 	 3.7000
  0.2000 	 1.2000 	 8.8615 	 11.5716 	 2.4275 	 46.5930 	 2.5783 	 43.5847 	 39.5671 	 3.0083 	 3.8000
  0.2000 	 1.2000 	 8.8171 	 11.7530 	 2.4750 	 46.0667 	 2.6267 	 43.1367 	 39.2394 	 2.9300 	 3.9000
  0.2000 	 1.2000 	 8.7727 	 11.9334 	 2.5225 	 45.5533 	 2.6749 	 42.6983 	 38.9178 	 2.8550 	 4.0000
  0.2000 	 1.2000 	 8.7283 	 12.1131 	 2.5698 	 45.0520 	 2.7231 	 42.2688 	 38.6020 	 2.7832 	 4.1000
  0.2000 	 1.2000 	 8.6839 	 12.2919 	 2.6170 	 44.5624 	 2.7710 	 41.8480 	 38.2918 	 2.7144 	 4.2000
  0.2000 	 1.2000 	 8.6395 	 12.4700 	 2.6641 	 44.0839 	 2.8189 	 41.4356 	 37.9871 	 2.6483 	 4.3000
  0.2000 	 1.2000 	 8.5951 	 12.6474 	 2.7112 	 43.6159 	 2.8667 	 41.0311 	 37.6876 	 2.5849 	 4.4000
  0.2000 	 1.2000 	 8.5506 	 12.8242 	 2.7581 	 43.1582 	 2.9143 	 40.6343 	 37.3934 	 2.5239 	 4.5000

  0.3000 	 1.3000 	 9.3602 	 9.8312 	 1.8542 	 56.1881 	 2.0768 	 50.3138 	 39.2398 	 5.8743 	 2.9000
  0.3000 	 1.3000 	 9.3192 	 10.0217 	 1.9000 	 55.4573 	 2.1242 	 49.7697 	 38.8787 	 5.6876 	 3.0000
  0.3000 	 1.3000 	 9.2783 	 10.2103 	 1.9456 	 54.7501 	 2.1714 	 49.2393 	 38.5220 	 5.5107 	 3.1000
  0.3000 	 1.3000 	 9.2373 	 10.3972 	 1.9911 	 54.0649 	 2.2183 	 48.7220 	 38.1697 	 5.3429 	 3.2000
  0.3000 	 1.3000 	 9.1963 	 10.5824 	 2.0363 	 53.4003 	 2.2649 	 48.2170 	 37.8220 	 5.1833 	 3.3000
  0.3000 	 1.3000 	 9.1553 	 10.7661 	 2.0813 	 52.7553 	 2.3114 	 47.7238 	 37.4789 	 5.0315 	 3.4000
  0.3000 	 1.3000 	 9.1143 	 10.9484 	 2.1262 	 52.1287 	 2.3576 	 47.2418 	 37.1401 	 4.8869 	 3.5000
  0.3000 	 1.3000 	 9.0733 	 11.1293 	 2.1709 	 51.5194 	 2.4037 	 46.7705 	 36.8059 	 4.7489 	 3.6000
  0.3000 	 1.3000 	 9.0323 	 11.3090 	 2.2155 	 50.9266 	 2.4496 	 46.3094 	 36.4760 	 4.6172 	 3.7000
  0.3000 	 1.3000 	 8.9913 	 11.4875 	 2.2600 	 50.3494 	 2.4953 	 45.8581 	 36.1504 	 4.4913 	 3.8000
  0.3000 	 1.3000 	 8.9503 	 11.6649 	 2.3043 	 49.7870 	 2.5408 	 45.4162 	 35.8292 	 4.3708 	 3.9000
  0.3000 	 1.3000 	 8.9093 	 11.8413 	 2.3485 	 49.2387 	 2.5862 	 44.9833 	 35.5121 	 4.2554 	 4.0000
  0.3000 	 1.3000 	 8.8683 	 12.0167 	 2.3926 	 48.7037 	 2.6315 	 44.5590 	 35.1992 	 4.1447 	 4.1000
  0.3000 	 1.3000 	 8.8273 	 12.1912 	 2.4366 	 48.1815 	 2.6766 	 44.1429 	 34.8903 	 4.0386 	 4.2000
  0.3000 	 1.3000 	 8.7863 	 12.3649 	 2.4804 	 47.6715 	 2.7216 	 43.7348 	 34.5853 	 3.9366 	 4.3000
  0.3000 	 1.3000 	 8.7454 	 12.5378 	 2.5242 	 47.1730 	 2.7664 	 43.3344 	 34.2843 	 3.8387 	 4.4000
  0.3000 	 1.3000 	 8.7044 	 12.7100 	 2.5679 	 46.6857 	 2.8112 	 42.9412 	 33.9871 	 3.7445 	 4.5000
  0.4000 	 1.4000 	 9.4451 	 9.7868 	 1.7189 	 60.0314 	 2.0294 	 52.2904 	 35.3674 	 7.7410 	 2.9000
  0.4000 	 1.4000 	 9.4071 	 9.9747 	 1.7621 	 59.2479 	 2.0746 	 51.7593 	 35.0399 	 7.4887 	 3.0000
  0.4000 	 1.4000 	 9.3690 	 10.1606 	 1.8051 	 58.4904 	 2.1195 	 51.2410 	 34.7129 	 7.2493 	 3.1000
  0.4000 	 1.4000 	 9.3310 	 10.3447 	 1.8479 	 57.7571 	 2.1642 	 50.7351 	 34.3868 	 7.0220 	 3.2000
  0.4000 	 1.4000 	 9.2929 	 10.5271 	 1.8905 	 57.0466 	 2.2086 	 50.2408 	 34.0618 	 6.8058 	 3.3000
  0.4000 	 1.4000 	 9.2548 	 10.7079 	 1.9329 	 56.3575 	 2.2527 	 49.7577 	 33.7382 	 6.5998 	 3.4000
  0.4000 	 1.4000 	 9.2168 	 10.8872 	 1.9752 	 55.6886 	 2.2967 	 49.2852 	 33.4162 	 6.4035 	 3.5000
  0.4000 	 1.4000 	 9.1787 	 11.0650 	 2.0172 	 55.0387 	 2.3405 	 48.8228 	 33.0959 	 6.2160 	 3.6000
  0.4000 	 1.4000 	 9.1406 	 11.2416 	 2.0591 	 54.4069 	 2.3840 	 48.3701 	 32.7775 	 6.0368 	 3.7000
  0.4000 	 1.4000 	 9.1026 	 11.4168 	 2.1009 	 53.7920 	 2.4274 	 47.9266 	 32.4610 	 5.8653 	 3.8000
  0.4000 	 1.4000 	 9.0645 	 11.5909 	 2.1425 	 53.1933 	 2.4706 	 47.4921 	 32.1465 	 5.7012 	 3.9000
  0.4000 	 1.4000 	 9.0264 	 11.7639 	 2.1840 	 52.6099 	 2.5136 	 47.0661 	 31.8342 	 5.5437 	 4.0000
  0.4000 	 1.4000 	 8.9884 	 11.9359 	 2.2253 	 52.0410 	 2.5565 	 46.6483 	 31.5240 	 5.3927 	 4.1000
  0.4000 	 1.4000 	 8.9503 	 12.1068 	 2.2666 	 51.4860 	 2.5992 	 46.2384 	 31.2159 	 5.2477 	 4.2000
  0.4000 	 1.4000 	 8.9123 	 12.2769 	 2.3077 	 50.9443 	 2.6418 	 45.8360 	 30.9100 	 5.1083 	 4.3000
  0.4000 	 1.4000 	 8.8742 	 12.4461 	 2.3488 	 50.4151 	 2.6842 	 45.4409 	 30.6063 	 4.9742 	 4.4000
  0.4000 	 1.4000 	 8.8361 	 12.6145 	 2.3897 	 49.8979 	 2.7265 	 45.0528 	 30.3048 	 4.8451 	 4.5000
  0.5000 	 1.4000 	 9.4451 	 9.7868 	 1.6696 	 63.1119 	 2.0294 	 52.2904 	 38.8234 	 10.8216 	 2.9000
  0.5000 	 1.5000 	 9.5187 	 9.7488 	 1.5846 	 63.5150 	 1.9903 	 54.0773 	 31.3100 	 9.4377 	 2.9000
  0.5000 	 1.4000 	 9.4071 	 9.9747 	 1.7131 	 62.2717 	 2.0746 	 51.7593 	 38.6898 	 10.5125 	 3.0000
  0.5000 	 1.5000 	 9.4832 	 9.9345 	 1.6258 	 62.6793 	 2.0337 	 53.5597 	 31.0207 	 9.1196 	 3.0000
  0.5000 	 1.4000 	 9.3690 	 10.1606 	 1.7564 	 61.4605 	 2.1195 	 51.2410 	 38.5521 	 10.2195 	 3.1000
  0.5000 	 1.5000 	 9.4477 	 10.1181 	 1.6666 	 61.8718 	 2.0768 	 53.0543 	 30.7274 	 8.8175 	 3.1000
  0.5000 	 1.4000 	 9.3310 	 10.3447 	 1.7994 	 60.6765 	 2.1642 	 50.7351 	 38.4109 	 9.9413 	 3.2000
  0.5000 	 1.5000 	 9.4122 	 10.2999 	 1.7073 	 61.0907 	 2.1195 	 52.5604 	 30.4307 	 8.5303 	 3.2000
  0.5000 	 1.4000 	 9.2929 	 10.5271 	 1.8422 	 59.9177 	 2.2086 	 50.2408 	 38.2669 	 9.6769 	 3.3000
  0.5000 	 1.5000 	 9.3766 	 10.4799 	 1.7477 	 60.3344 	 2.1620 	 52.0776 	 30.1314 	 8.2568 	 3.3000
  0.5000 	 1.4000 	 9.2548 	 10.7079 	 1.8848 	 59.1828 	 2.2527 	 49.7577 	 38.1206 	 9.4252 	 3.4000
  0.5000 	 1.4000 	 9.2168 	 10.8872 	 1.9273 	 58.4704 	 2.2967 	 49.2852 	 37.9726 	 9.1852 	 3.5000
  0.5000 	 1.4000 	 9.1787 	 11.0650 	 1.9695 	 57.7790 	 2.3405 	 48.8228 	 37.8231 	 8.9562 	 3.6000
  0.5000 	 1.4000 	 9.1406 	 11.2416 	 2.0116 	 57.1075 	 2.3840 	 48.3701 	 37.6725 	 8.7374 	 3.7000
  0.5000 	 1.4000 	 9.1026 	 11.4168 	 2.0535 	 56.4548 	 2.4274 	 47.9266 	 37.5212 	 8.5282 	 3.8000
  0.5000 	 1.4000 	 9.0645 	 11.5909 	 2.0953 	 55.8199 	 2.4706 	 47.4921 	 37.3694 	 8.3278 	 3.9000
  0.5000 	 1.4000 	 9.0264 	 11.7639 	 2.1369 	 55.2020 	 2.5136 	 47.0661 	 37.2173 	 8.1358 	 4.0000
  0.5000 	 1.4000 	 8.9884 	 11.9359 	 2.1784 	 54.6000 	 2.5565 	 46.6483 	 37.0652 	 7.9517 	 4.1000
  0.5000 	 1.4000 	 8.9503 	 12.1068 	 2.2198 	 54.0133 	 2.5992 	 46.2384 	 36.9132 	 7.7749 	 4.2000
  0.5000 	 1.4000 	 8.9123 	 12.2769 	 2.2611 	 53.4411 	 2.6418 	 45.8360 	 36.7614 	 7.6051 	 4.3000
  0.5000 	 1.4000 	 8.8742 	 12.4461 	 2.3022 	 52.8827 	 2.6842 	 45.4409 	 36.6101 	 7.4418 	 4.4000
  0.5000 	 1.4000 	 8.8361 	 12.6145 	 2.3433 	 52.3374 	 2.7265 	 45.0528 	 36.4593 	 7.2846 	 4.5000
