# D(e,e'p)n Central Kinematics Summary
# Beam Energy (Ei) = 10.549 GeV
# /volatile/hallc/c-cafe-2022/cyero/worksim
# Previous D(e,e'p) commissioning experiment low-pmiss kin (Pr = 80 MeV setting):
# Ei = 10.6005, kf = 8.5342 GeV/c, th_e = 12.194 deg, Pf = 2.840 GeV/c, th_p = 38.896 deg 
# Q2 = 4.0822 GeV^2, xbj = 1.0528 
# 
# Header Definitions: 
# Pr   : Central Missing Momentum [GeV/c] 
# xbj  : Bjorken x  
# kf   : e- final momentum [GeV/c] 
# th_e : e- scattering angle [deg] 
# Pf   : final proton momentum [GeV/c] 
# th_p : proton scattering angle [deg] 
# q    : 3-momentum transfer [GeV] 
# th_q : relative angle between q-vector and +z (lab)  [deg] 
# th_nq: relative angle between q-vector and recoil neutron [deg] 
# th_pq: relative angle between q-vector and knocked-out proton [deg] 
# Q2   : 4-Momentum Transfer [GeV^2]  
# 
#! Pr[f,0]/ 	  xbj[f,1]/ 	 kf[f,2]/ 	 th_e[f,3]/ 	 Pf[f,4]/ 	 th_p[f,5]/ 	 q[f,6]/ 	 th_q[f,7]/ 	 th_nq[f,8]/ 	 th_pq[f,9]/ 	 Q2[f,10]/
  0.3000 	 1.3000 	 8.0895 	 15.2375 	 3.2147 	 40.4389 	 3.4712 	 37.7699 	 29.9325 	 2.6690 	 6.0000
  0.3000 	 1.3500 	 8.1806 	 15.1519 	 3.1197 	 40.3718 	 3.4073 	 38.8697 	 15.8189 	 1.5021 	 6.0000
  0.4000 	 1.3000 	 8.0895 	 15.2375 	 3.1784 	 42.4714 	 3.4712 	 37.7699 	 40.6387 	 4.7015 	 6.0000
  0.4000 	 1.3500 	 8.1806 	 15.1519 	 3.0833 	 43.0173 	 3.4073 	 38.8697 	 33.8828 	 4.1476 	 6.0000
  0.4000 	 1.4000 	 8.2652 	 15.0737 	 2.9947 	 43.2876 	 3.3490 	 39.9274 	 26.0293 	 3.3602 	 6.0000
  0.4000 	 1.4500 	 8.3439 	 15.0020 	 2.9121 	 43.0345 	 3.2958 	 40.9447 	 15.3954 	 2.0898 	 6.0000
  0.5000 	 1.3000 	 8.0895 	 15.2375 	 3.1333 	 44.1766 	 3.4712 	 37.7699 	 44.3685 	 6.4067 	 6.0000
  0.5000 	 1.3500 	 8.1806 	 15.1519 	 3.0381 	 44.8783 	 3.4073 	 38.8697 	 39.4976 	 6.0086 	 6.0000
  0.5000 	 1.4000 	 8.2652 	 15.0737 	 2.9495 	 45.4098 	 3.3490 	 39.9274 	 34.3046 	 5.4825 	 6.0000
  0.5000 	 1.4500 	 8.3439 	 15.0020 	 2.8667 	 45.7307 	 3.2958 	 40.9447 	 28.5790 	 4.7860 	 6.0000
  0.5000 	 1.5000 	 8.4174 	 14.9360 	 2.7893 	 45.7513 	 3.2471 	 41.9234 	 21.8651 	 3.8279 	 6.0000
  0.5000 	 1.5500 	 8.4862 	 14.8750 	 2.7166 	 45.1687 	 3.2024 	 42.8651 	 12.6142 	 2.3036 	 6.0000
  0.6000 	 1.3000 	 8.0895 	 15.2375 	 3.0806 	 45.7565 	 3.4712 	 37.7699 	 45.5100 	 7.9866 	 6.0000
  0.6000 	 1.3500 	 8.1806 	 15.1519 	 2.9853 	 46.5377 	 3.4073 	 38.8697 	 41.5968 	 7.6680 	 6.0000
  0.6000 	 1.4000 	 8.2652 	 15.0737 	 2.8965 	 47.1795 	 3.3490 	 39.9274 	 37.5456 	 7.2521 	 6.0000
  0.6000 	 1.4500 	 8.3439 	 15.0020 	 2.8136 	 47.6653 	 3.2958 	 40.9447 	 33.2834 	 6.7207 	 6.0000
  0.6000 	 1.5000 	 8.4174 	 14.9360 	 2.7360 	 47.9671 	 3.2471 	 41.9234 	 28.6922 	 6.0437 	 6.0000
  0.6000 	 1.5500 	 8.4862 	 14.8750 	 2.6632 	 48.0304 	 3.2024 	 42.8651 	 23.5534 	 5.1653 	 6.0000
  0.6000 	 1.6000 	 8.5506 	 14.8185 	 2.5947 	 47.7268 	 3.1612 	 43.7715 	 17.3551 	 3.9552 	 6.0000
  0.6000 	 1.6500 	 8.6112 	 14.7660 	 2.5302 	 46.4981 	 3.1233 	 44.6442 	 7.8413 	 1.8539 	 6.0000
  0.7000 	 1.3000 	 8.0895 	 15.2375 	 3.0211 	 47.2664 	 3.4712 	 37.7699 	 45.4033 	 9.4965 	 6.0000
  0.7000 	 1.3500 	 8.1806 	 15.1519 	 2.9256 	 48.0974 	 3.4073 	 38.8697 	 42.0832 	 9.2277 	 6.0000
  0.7000 	 1.4000 	 8.2652 	 15.0737 	 2.8366 	 48.8022 	 3.3490 	 39.9274 	 38.6954 	 8.8748 	 6.0000
  0.7000 	 1.4500 	 8.3439 	 15.0020 	 2.7536 	 49.3718 	 3.2958 	 40.9447 	 35.2036 	 8.4271 	 6.0000
  0.7000 	 1.5000 	 8.4174 	 14.9360 	 2.6758 	 49.7921 	 3.2471 	 41.9234 	 31.5556 	 7.8688 	 6.0000
  0.7000 	 1.5500 	 8.4862 	 14.8750 	 2.6028 	 50.0399 	 3.2024 	 42.8651 	 27.6715 	 7.1747 	 6.0000
  0.7000 	 1.6000 	 8.5506 	 14.8185 	 2.5342 	 50.0732 	 3.1612 	 43.7715 	 23.4141 	 6.3017 	 6.0000
  0.7000 	 1.6500 	 8.6112 	 14.7660 	 2.4695 	 49.8057 	 3.1233 	 44.6442 	 18.5046 	 5.1615 	 6.0000
  0.8000 	 1.3000 	 8.0895 	 15.2375 	 2.9558 	 48.7306 	 3.4712 	 37.7699 	 44.6277 	 10.9607 	 6.0000
  0.8000 	 1.3500 	 8.1806 	 15.1519 	 2.8600 	 49.5964 	 3.4073 	 38.8697 	 41.7133 	 10.7267 	 6.0000
  0.8000 	 1.4000 	 8.2652 	 15.0737 	 2.7709 	 50.3421 	 3.3490 	 39.9274 	 38.7649 	 10.4148 	 6.0000
  0.8000 	 1.4500 	 8.3439 	 15.0020 	 2.6876 	 50.9623 	 3.2958 	 40.9447 	 35.7600 	 10.0176 	 6.0000
  0.8000 	 1.5000 	 8.4174 	 14.9360 	 2.6096 	 51.4482 	 3.2471 	 41.9234 	 32.6691 	 9.5249 	 6.0000
  0.8000 	 1.5500 	 8.4862 	 14.8750 	 2.5364 	 51.7864 	 3.2024 	 42.8651 	 29.4509 	 8.9212 	 6.0000
  0.8000 	 1.6000 	 8.5506 	 14.8185 	 2.4676 	 51.9549 	 3.1612 	 43.7715 	 26.0432 	 8.1833 	 6.0000
  0.8000 	 1.6500 	 8.6112 	 14.7660 	 2.4027 	 51.9160 	 3.1233 	 44.6442 	 22.3432 	 7.2718 	 6.0000
  0.9000 	 1.3000 	 8.0895 	 15.2375 	 2.8853 	 50.1630 	 3.4712 	 37.7699 	 43.4758 	 12.3931 	 6.0000
  0.9000 	 1.3500 	 8.1806 	 15.1519 	 2.7894 	 51.0547 	 3.4073 	 38.8697 	 40.8566 	 12.1850 	 6.0000
  0.9000 	 1.4000 	 8.2652 	 15.0737 	 2.7000 	 51.8291 	 3.3490 	 39.9274 	 38.2213 	 11.9017 	 6.0000
  0.9000 	 1.4500 	 8.3439 	 15.0020 	 2.6165 	 52.4824 	 3.2958 	 40.9447 	 35.5545 	 11.5377 	 6.0000
  0.9000 	 1.5000 	 8.4174 	 14.9360 	 2.5383 	 53.0085 	 3.2471 	 41.9234 	 32.8367 	 11.0851 	 6.0000
  0.9000 	 1.5500 	 8.4862 	 14.8750 	 2.4648 	 53.3981 	 3.2024 	 42.8651 	 30.0419 	 10.5329 	 6.0000
  0.9000 	 1.6000 	 8.5506 	 14.8185 	 2.3957 	 53.6369 	 3.1612 	 43.7715 	 27.1339 	 9.8653 	 6.0000
  0.9000 	 1.6500 	 8.6112 	 14.7660 	 2.3306 	 53.7021 	 3.1233 	 44.6442 	 24.0589 	 9.0579 	 6.0000
  1.0000 	 1.3000 	 8.0895 	 15.2375 	 2.8105 	 51.5731 	 3.4712 	 37.7699 	 42.1096 	 13.8032 	 6.0000
  1.0000 	 1.3500 	 8.1806 	 15.1519 	 2.7143 	 52.4851 	 3.4073 	 38.8697 	 39.7139 	 13.6154 	 6.0000
  1.0000 	 1.4000 	 8.2652 	 15.0737 	 2.6246 	 53.2805 	 3.3490 	 39.9274 	 37.3127 	 13.3531 	 6.0000
  1.0000 	 1.4500 	 8.3439 	 15.0020 	 2.5408 	 53.9563 	 3.2958 	 40.9447 	 34.8944 	 13.0116 	 6.0000
  1.0000 	 1.5000 	 8.4174 	 14.9360 	 2.4623 	 54.5077 	 3.2471 	 41.9234 	 32.4446 	 12.5843 	 6.0000
  1.0000 	 1.5500 	 8.4862 	 14.8750 	 2.3886 	 54.9276 	 3.2024 	 42.8651 	 29.9449 	 12.0625 	 6.0000
  1.0000 	 1.6000 	 8.5506 	 14.8185 	 2.3192 	 55.2053 	 3.1612 	 43.7715 	 27.3709 	 11.4338 	 6.0000
  1.0000 	 1.6500 	 8.6112 	 14.7660 	 2.2538 	 55.3243 	 3.1233 	 44.6442 	 24.6882 	 10.6801 	 6.0000
